acc_x, acc_y, angular_z, stamp, 
0.002909243106842041, -0.0064400434494018555, -0.00014051153477478976, 1738282051472426498
-0.0167081356048584, -0.0047470927238464355, -0.0001409549881250824, 1738282051502396969
-0.032702505588531494, -0.0102120041847229, -0.0001408771657869243, 1738282051532436867
0.023118257522583008, -0.015620410442352295, -0.00014110641955289883, 1738282051572460174
-0.0037884116172790527, 0.011237144470214844, -0.00014073209935055802, 1738282051602531008
-0.009167253971099854, -0.0013494491577148438, -0.00014106580196161762, 1738282051632530707
-0.0038990378379821777, -0.0012853741645812988, -0.0001409962535704239, 1738282051662545207
0.012199103832244873, 0.0005081295967102051, -0.00014084625545794066, 1738282051692591675
0.005068659782409668, -0.0084763765335083, -0.00014045454826953956, 1738282051722668892
0.001559615135192871, -0.020850300788879395, -0.0001328870198082673, 1738282051754458912
-0.0038709640502929688, 0.000905454158782959, -0.00014919385022195934, 1738282051782774292
-0.007291138172149658, 0.03158926963806152, -0.00014073211950322887, 1738282051812845112
0.0036293864250183105, 0.004492521286010742, -0.00014114649026964577, 1738282051842774859
0.007245659828186035, 0.007891058921813965, -0.00014114645309486112, 1738282051872810183
-0.012400329113006592, -0.019197583198547363, -0.00013927489399487349, 1738282051903195616
-0.01764732599258423, -0.008338749408721924, -0.00014258473876204307, 1738282051932875697
-0.011971533298492432, 0.015083670616149902, -0.0001409733123891571, 1738282051962947884
-0.0026801228523254395, 0.0060389041900634766, -0.00013249841745523235, 1738282051994943545
0.006465911865234375, 0.011287391185760498, -0.00013345793916510798, 1738282052026653333
0.0012028217315673828, -0.021216511726379395, -0.0001599202665830847, 1738282052053116016
0.0029706358909606934, 0.01669454574584961, -0.00014098140663912898, 1738282052083133593
-0.027465879917144775, 0.020332634449005127, -0.00014115380916499912, 1738282052113114520
-0.003996610641479492, 0.0040590763092041016, -0.00014124509046393495, 1738282052143128824
0.01741260290145874, 0.000329434871673584, -0.0001403348772201839, 1738282052173178517
-0.013398349285125732, -0.0051323771476745605, -0.0001402709528101988, 1738282052203241914
0.002820730209350586, -0.0034935474395751953, -0.0001338592603967012, 1738282052234800977
-0.013335704803466797, -0.0018859505653381348, -0.000133613854742459, 1738282052266362235
0.02444601058959961, 0.001666247844696045, -0.00015599714495188806, 1738282052293394912
0.013593971729278564, -0.03957664966583252, -0.00014087341116205782, 1738282052323382635
0.004479944705963135, 0.00015085935592651367, -0.00014051307750748005, 1738282052353394251
-0.017108440399169922, -0.010435521602630615, -0.00014049065784087745, 1738282052383410666
-0.020415008068084717, 0.020240068435668945, -0.00014008226867645812, 1738282052413461399
0.040893614292144775, -0.017373323440551758, -0.0001401207905055662, 1738282052443503864
-0.014713108539581299, -0.00457000732421875, -0.00013595103579174458, 1738282052474522575
0.0016131997108459473, -0.0009021759033203125, -0.0001302989896322165, 1738282052506886818
0.0016948580741882324, 0.0010293126106262207, -0.0001573615506710635, 1738282052533685154
0.008870244026184082, -0.002493619918823242, -0.00014055254178666553, 1738282052563688366
0.0052492618560791016, 0.0064544677734375, -0.00014019612423210186, 1738282052593767861
-0.021846354007720947, -0.007734477519989014, -0.00013989579320718826, 1738282052623911941
-0.01810842752456665, 0.006780564785003662, -0.0001403609144430567, 1738282052653956131
-0.003509342670440674, 0.00524294376373291, -0.0001411622277618451, 1738282052683829790
8.511543273925781e-05, -2.7239322662353516e-05, -0.00013715437914136686, 1738282052714576407
-0.01587146520614624, 0.009084045886993408, -0.00013241483497938663, 1738282052746479823
-0.013911247253417969, 0.00567317008972168, -0.00015322233209803956, 1738282052774002155
-0.013552546501159668, 0.016649901866912842, -0.00014121855416760493, 1738282052803916719
0.022701382637023926, 0.013221263885498047, -0.0001402307099956923, 1738282052834042030
-0.0005481243133544922, 0.006188750267028809, -0.00014080107651497418, 1738282052863992424
-0.0005057454109191895, 0.015306532382965088, -0.00014048982013127522, 1738282052894062203
-0.011182725429534912, 0.011869370937347412, -0.0001406026188340046, 1738282052924054894
0.007018983364105225, -0.0007191896438598633, -0.00013685939770698453, 1738282052954922347
0.028868556022644043, 0.0009438991546630859, -0.00013285716782570063, 1738282052986719664
0.021583378314971924, -0.01719510555267334, -0.00015337881550496336, 1738282053014262570
0.0035906434059143066, -0.015435576438903809, -0.00014078261758635762, 1738282053044216849
-0.012462615966796875, -0.00123673677444458, -0.0001405760465747962, 1738282053074268145
-0.012321233749389648, 0.023777782917022705, -0.00014082627726368126, 1738282053104266021
0.02185291051864624, 0.021864891052246094, -0.00014045771954974528, 1738282053134342601
-0.0017009377479553223, -0.006961703300476074, -0.0001410005969967661, 1738282053164356199
-0.001944124698638916, -0.003398299217224121, -0.0001400078769012195, 1738282053194529382
-0.01472926139831543, -0.0016208291053771973, -0.00013220063168150248, 1738282053226428112
0.02280491590499878, 0.0037256479263305664, -0.00013992583545023007, 1738282053256459230
0.024478137493133545, -0.02149343490600586, -0.0001495152762278878, 1738282053284464571
-0.0010455846786499023, -0.008796393871307373, -0.00013941024986206024, 1738282053314553304
0.004137814044952393, 0.0021827220916748047, -0.00013929161161342854, 1738282053344614172
-0.010334372520446777, 0.031129777431488037, -0.00013958394935575653, 1738282053374612082
-0.030148983001708984, 0.016920030117034912, -0.00013931138621491306, 1738282053404668683
0.00031197071075439453, -0.0009387731552124023, -0.00014406057224997508, 1738282053433734414
0.025287330150604248, -0.0368269681930542, -0.000129577642321391, 1738282053466048823
0.02127629518508911, -0.004266321659088135, -0.00013257986648172604, 1738282053497575273
0.0010652542114257812, 0.02115154266357422, -0.0001533551344625122, 1738282053524879341
0.02057582139968872, 0.0015154480934143066, -0.00013922669458804298, 1738282053554847119
0.02020096778869629, 0.0016014575958251953, -0.00013818294327516258, 1738282053584933383
0.01627659797668457, 0.005791366100311279, 0.0005943318860964036, 1738282053614907098
-0.4181818962097168, 0.13423985242843628, 0.020066722055818238, 1738282053644947810
-0.27395325899124146, 0.7106131911277771, 0.3066467825807769, 1738282053675033708
-0.1084446907043457, 0.2793460488319397, 0.5722666005818313, 1738282053706597553
0.463031530380249, -0.28443312644958496, 0.5763080146466977, 1738282053738543283
-0.14507466554641724, -0.03509831428527832, 0.5904073686981186, 1738282053774149345
-0.010596692562103271, -0.021010279655456543, 0.48847491074254984, 1738282053805245149
0.043791890144348145, 0.05346500873565674, 0.5039545579356334, 1738282053835282382
0.10631990432739258, 0.07801610231399536, 0.4972534997763072, 1738282053866595682
-0.015923142433166504, -0.29112696647644043, 0.5146200832465926, 1738282053898425051
0.08716857433319092, 0.0812731385231018, 0.5781469298010704, 1738282053925329820
0.0884513258934021, 0.03130894899368286, 0.4847616748373618, 1738282053955337546
-0.06333494186401367, 0.04952263832092285, 0.40388782274092044, 1738282053978828128
-0.006404578685760498, -0.09831374883651733, 0.539823750574154, 1738282054005488417
0.08769762516021729, 0.06283611059188843, 0.5148188502296759, 1738282054035454657
0.06572508811950684, 0.19348764419555664, 0.530454493958199, 1738282054065446884
-0.13558882474899292, -0.054892659187316895, 0.5131081181578705, 1738282054095496743
0.03950655460357666, -0.1489136815071106, 0.5106469711269751, 1738282054125569051
-0.030734121799468994, 0.031150102615356445, 0.4948826476645497, 1738282054155657975
0.25878238677978516, 0.026626646518707275, 0.4801111946780445, 1738282054186772566
-0.16914445161819458, 0.10892021656036377, 0.469041490928167, 1738282054218495690
0.23739594221115112, -0.007317841053009033, 0.5789121587971385, 1738282054245808930
0.04195988178253174, -0.17392027378082275, 0.5579141555645748, 1738282054275735316
-0.0020540356636047363, 0.047193706035614014, 0.5448184588204537, 1738282054305968120
0.16804510354995728, 0.3106699585914612, 0.5412380810989418, 1738282054335845114
0.01353156566619873, 0.022311031818389893, 0.6339021380501647, 1738282054365894959
0.007572054862976074, 0.03857755661010742, 0.7129828883364447, 1738282054395806691
0.27004653215408325, 0.05502218008041382, 0.7049461166092409, 1738282054427025554
0.2386258840560913, 0.12981057167053223, 0.720021597470354, 1738282054458438236
-0.014590680599212646, -0.13665050268173218, 0.8791178954056966, 1738282054486043713
-0.19987070560455322, 0.041437506675720215, 0.7921308888551422, 1738282054516004263
0.020808756351470947, 0.036412835121154785, 0.7614879081174989, 1738282054545995530
0.007067739963531494, -0.19084399938583374, 0.7814331262045745, 1738282054576064902
-0.08860677480697632, 0.12858712673187256, 0.7505557986891821, 1738282054606308201
0.4682586193084717, -0.10550254583358765, 0.750825248262818, 1738282054636432005
-0.39867299795150757, -0.32360172271728516, 0.6047664759011423, 1738282054666624437
-0.19538867473602295, -0.37427765130996704, 0.3783621095262949, 1738282054698714408
0.0863158106803894, -0.03964996337890625, 0.4027660550795425, 1738282054726383767
-0.010101497173309326, 0.43307626247406006, 0.42270598336144255, 1738282054756252494
0.18600118160247803, 0.16293394565582275, 0.44287751754344973, 1738282054786990435
-0.1686866283416748, -0.36548006534576416, 0.4749308992707152, 1738282054817010117
-0.11135077476501465, 0.08181589841842651, 0.5240587665680452, 1738282054846965766
-0.06983113288879395, 0.13740229606628418, 0.518288358224032, 1738282054877008174
-0.017976045608520508, -0.16661995649337769, 0.49141098870506067, 1738282054907200067
-0.04817074537277222, 0.048839449882507324, 0.4891660492651618, 1738282054938954962
-0.038017451763153076, 0.046550095081329346, 0.5452986457194796, 1738282054968522049
0.008380293846130371, 0.04188132286071777, 0.5493896227930147, 1738282054997117613
-0.00535815954208374, -0.10986059904098511, 0.527800352707669, 1738282055027065105
0.11074960231781006, 0.09579747915267944, 0.5406679272440464, 1738282055057114585
0.0160483717918396, 0.11851304769515991, 0.5644333039838718, 1738282055086093792
-0.12498825788497925, 0.015739798545837402, 0.5386930199199488, 1738282055117148493
0.38596707582473755, 0.23376059532165527, 0.5881910381653525, 1738282055147192372
0.9302694797515869, 0.02359706163406372, 0.6486977901469994, 1738282055178877590
0.10789966583251953, 0.02857685089111328, 0.7407573644541975, 1738282055208612901
-0.12392383813858032, 0.11889630556106567, 0.7830449072473559, 1738282055237314776
-0.6262729167938232, -0.09408217668533325, 0.7776663391248774, 1738282055267133157
-0.03325170278549194, -0.024177968502044678, 0.7433483806890298, 1738282055297173350
-0.09497606754302979, 0.15708619356155396, 0.6790968762746674, 1738282055327163545
-0.08008497953414917, -0.2490624189376831, 0.5961676100458014, 1738282055357210659
-0.22762900590896606, -0.08292210102081299, 0.5012651706432206, 1738282055387265882
0.08498519659042358, 0.0557822585105896, 0.4363925606762981, 1738282055418534958
-0.3491235375404358, 0.10066330432891846, 0.4268330924078665, 1738282055450392372
0.21080809831619263, 0.05525296926498413, 0.4969129714841028, 1738282055477330059
0.006169557571411133, 0.05806690454483032, 0.471390408932176, 1738282055507313165
0.19586163759231567, 0.11583864688873291, 0.5066086636030152, 1738282055537369598
0.05584484338760376, 0.018132925033569336, 0.5083671533039587, 1738282055567369015
-0.013620257377624512, 0.00668257474899292, 0.49914761397253893, 1738282055597424150
0.0928729772567749, -0.03647661209106445, 0.508709317915613, 1738282055627413330
-0.10320818424224854, -0.02563762664794922, 0.49728282714274363, 1738282055658535690
0.16227388381958008, 0.17183291912078857, 0.49227605289211046, 1738282055690577038
0.08235317468643188, -0.0834302306175232, 0.561384480767877, 1738282055717414744
0.18720674514770508, -0.0627204179763794, 0.4939566726928827, 1738282055747409242
-0.025897204875946045, 0.1616845726966858, 0.48837202417250264, 1738282055777639931
-0.3506201505661011, 0.2303684949874878, 0.49333197301770504, 1738282055807496511
0.14446407556533813, -0.19181543588638306, 0.5012464071152045, 1738282055837546592
-0.09878188371658325, -0.0671960711479187, 0.4986017310710007, 1738282055867581609
0.2525436282157898, 0.18378835916519165, 0.47484943812996094, 1738282055899220311
0.15087831020355225, -0.08543580770492554, 0.47700537949782684, 1738282055930851197
-0.09577441215515137, 0.07011842727661133, 0.5454461805304756, 1738282055957805799
-0.09464842081069946, 0.1358320116996765, 0.4741499933630232, 1738282055987877018
0.1829357147216797, -0.025344371795654297, 0.47948840330189574, 1738282056017970804
-0.06593859195709229, -0.15690499544143677, 0.47411146066574056, 1738282056047807122
0.17678219079971313, 0.06964260339736938, 0.5120476524492236, 1738282056077952234
-0.6248676180839539, 0.05482441186904907, 0.5241657374765694, 1738282056106880606
0.3336442708969116, 0.07310760021209717, 0.4737335291372562, 1738282056138528588
0.12155431509017944, 0.06094259023666382, 0.42689453324522114, 1738282056170504960
-0.20321035385131836, 0.07965224981307983, 0.5669969236636307, 1738282056197080384
0.37246865034103394, 0.12111866474151611, 0.5022921377117057, 1738282056227972168
-0.431069016456604, 0.01108849048614502, 0.5102721452613134, 1738282056258025334
0.20810538530349731, 0.015935301780700684, 0.4865858654849211, 1738282056288040830
-0.21988391876220703, 0.09524470567703247, 0.5089847169853592, 1738282056317095966
0.18022507429122925, 0.05133640766143799, 0.4768201782961447, 1738282056348121354
-0.28998488187789917, 0.1168510913848877, 0.4901889016756763, 1738282056379022286
-0.301952600479126, -0.14909100532531738, 0.4915524684118485, 1738282056410905230
0.11418336629867554, 0.1406441330909729, 0.5499882984258722, 1738282056438313038
0.3326287865638733, 0.20252251625061035, 0.4865378855415665, 1738282056468596928
0.018185794353485107, -0.0953337550163269, 0.4986794314294567, 1738282056498572646
-0.20752179622650146, -0.074756920337677, 0.5005366023966973, 1738282056528330904
-0.044860243797302246, 0.1624760627746582, 0.49412869010330407, 1738282056558607587
0.3700576424598694, 0.3190319538116455, 0.49927482486471253, 1738282056588474987
0.32394999265670776, 0.12872278690338135, 0.4946306951116111, 1738282056618728560
0.12343961000442505, 0.051310837268829346, 0.4907105539167894, 1738282056650742456
-0.0653841495513916, -0.011931359767913818, 0.5262055073349647, 1738282056680906390
-0.037282586097717285, 0.3137120008468628, 0.5449423031187284, 1738282056708533571
-0.11907416582107544, 0.1445586085319519, 0.4861821699566703, 1738282056738618512
-0.119240403175354, -0.2626464366912842, 0.5060908025091727, 1738282056768706155
-0.14736878871917725, 0.1891794204711914, 0.5182434885426244, 1738282056798626235
0.13322359323501587, 0.16446059942245483, 0.49438974693149357, 1738282056828666451
-0.12245911359786987, 0.09943342208862305, 0.49045012274687283, 1738282056858981110
-0.05151122808456421, -0.017857670783996582, 0.4925502652765528, 1738282056890546993
0.19671261310577393, -0.10483211278915405, 0.5188024667020232, 1738282056921325338
0.1623210310935974, 0.39583808183670044, 0.5444548685619921, 1738282056948801137
0.02090311050415039, -0.08245980739593506, 0.4800964882341453, 1738282056978853082
-0.13919752836227417, -0.020273029804229736, 0.5037044155994576, 1738282057007912645
-0.08996689319610596, 0.21329528093338013, 0.4820671214934564, 1738282057037902659
0.17424988746643066, 0.4175041913986206, 0.4649524830422438, 1738282057069208469
0.0057179927825927734, -0.30745798349380493, 0.5160392355421698, 1738282057098996578
0.14282429218292236, -0.04133009910583496, 0.503369896603231, 1738282057130833104
-0.05516868829727173, 0.47157126665115356, 0.5022337481642456, 1738282057161751455
0.1097072958946228, -0.08591383695602417, 0.5402204452122559, 1738282057198104361
-0.11110091209411621, -0.1697629690170288, 0.46434130154075903, 1738282057229298712
-0.1638888120651245, 0.39350205659866333, 0.4928628294325992, 1738282057259276851
-0.08447140455245972, 0.18718183040618896, 0.4726138413253119, 1738282057290951820
0.2797868847846985, -0.1725565791130066, 0.49204295004550364, 1738282057322607096
0.12286728620529175, 0.20833641290664673, 0.5679872395715007, 1738282057349295631
-0.11630147695541382, 0.06933319568634033, 0.4989908879399062, 1738282057379352115
0.055822551250457764, -0.11650878190994263, 0.4985270982574081, 1738282057409337865
-0.14866214990615845, 0.512414813041687, 0.47721412249529394, 1738282057439361173
-0.14155900478363037, -0.15471488237380981, 0.4936407916006714, 1738282057469393929
-0.22205841541290283, 0.08523982763290405, 0.5111076717256609, 1738282057499480521
0.1676633358001709, 0.23267275094985962, 0.479456393969434, 1738282057530626151
-0.35136014223098755, -0.17698454856872559, 0.4579231372756415, 1738282057563051086
0.21858632564544678, 0.3057730793952942, 0.5773068604427557, 1738282057589613776
0.01301121711730957, 0.1272171139717102, 0.5049742085269701, 1738282057619662226
-0.19576966762542725, -0.18278372287750244, 0.5137412671883853, 1738282057649636782
0.08542829751968384, 0.34365910291671753, 0.5143604316571647, 1738282057679773208
0.03189033269882202, 0.09023833274841309, 0.5197488801715425, 1738282057709741563
0.03202950954437256, 0.18868660926818848, 0.5139616190235862, 1738282057740027512
-0.1109468936920166, -0.05507218837738037, 0.5002799583466708, 1738282057770605429
0.015585482120513916, -0.014841258525848389, 0.4650078837146393, 1738282057802628553
-0.14228159189224243, 0.25880753993988037, 0.5325424247021048, 1738282057829932815
0.183346688747406, 0.09190267324447632, 0.5098399254172438, 1738282057859895111
0.09841734170913696, 0.06014859676361084, 0.4937842351292014, 1738282057889896947
0.03810364007949829, 0.27565401792526245, 0.48540458597907515, 1738282057919944040
-0.09482353925704956, 0.05905860662460327, 0.510636285018259, 1738282057948955832
-0.006934046745300293, 0.11393839120864868, 0.4846291593891339, 1738282057980045291
0.09044390916824341, -0.013877809047698975, 0.4908250279439725, 1738282058011287851
0.1590956449508667, 0.45895326137542725, 0.47564033813853346, 1738282058042816912
-0.150570809841156, -0.14436215162277222, 0.5457560265615791, 1738282058070206751
-0.10448461771011353, 0.0006621479988098145, 0.5056290267413965, 1738282058100184486
-0.3352079391479492, 0.2782559394836426, 0.5165752341746634, 1738282058130183763
0.39422839879989624, 0.07378417253494263, 0.49946477730457645, 1738282058160230734
-0.11752474308013916, 0.24333757162094116, 0.46807857866812774, 1738282058190265638
-0.07066214084625244, -0.022107601165771484, 0.49986020723170543, 1738282058220367901
0.29492878913879395, 0.16139817237854004, 0.5010379951433, 1738282058250600213
0.1811387538909912, 0.38538658618927, 0.4510083722605587, 1738282058283211978
-0.05859172344207764, -0.07347100973129272, 0.5381002187065113, 1738282058310575337
0.29944485425949097, 0.020996034145355225, 0.5036150544408919, 1738282058340459923
-0.305309534072876, 0.14451122283935547, 0.5072199428390399, 1738282058370462545
0.05641829967498779, 0.35001295804977417, 0.5150147021631497, 1738282058400529398
-0.11177515983581543, 0.12232023477554321, 0.5177535564562452, 1738282058430542039
-0.3755735754966736, -0.057817280292510986, 0.5105168413083973, 1738282058460603361
0.1313304901123047, -0.018048346042633057, 0.5071972571088446, 1738282058490647202
-0.11497610807418823, 0.05263549089431763, 0.4822799640725003, 1738282058522078227
-0.19351404905319214, 0.5582195520401001, 0.5294240699977718, 1738282058550770737
-0.11414450407028198, -0.24085497856140137, 0.5107880259396742, 1738282058580740100
-0.006981194019317627, 0.13315415382385254, 0.5080538162264444, 1738282058610766574
0.03242778778076172, 0.023701608180999756, 0.5049628063505308, 1738282058640818244
0.2558291554450989, 0.2822906970977783, 0.4905757207948981, 1738282058670818428
-0.34375786781311035, -0.013321161270141602, 0.4837055880895263, 1738282058700927171
0.11751461029052734, 0.051379263401031494, 0.5006870519312657, 1738282058730999419
-0.07971376180648804, 0.38367199897766113, 0.479188565317951, 1738282058762675612
-0.3555082082748413, 0.31818991899490356, 0.48667706693047885, 1738282058793501999
0.08744490146636963, -0.3406367897987366, 0.5652540248747763, 1738282058820080143
-0.04556983709335327, 0.4468172788619995, 0.4718270353807452, 1738282058851037235
-0.13721615076065063, 0.06597226858139038, 0.5177232095503848, 1738282058880089482
0.21694767475128174, 0.20058757066726685, 0.47881985054725446, 1738282058911151278
-0.16361385583877563, 0.15946310758590698, 0.49558246054331867, 1738282058941198155
-0.12884479761123657, 0.23972594738006592, 0.489884627103532, 1738282058971461581
-0.016297757625579834, -0.0122336745262146, 0.4745361879647748, 1738282059002692141
-0.35865795612335205, 0.1826545000076294, 0.4769456328365854, 1738282059034259700
0.15708529949188232, 0.15374910831451416, 0.5506661134598738, 1738282059061347224
-0.43275386095046997, -0.009573161602020264, 0.5014152553229859, 1738282059091408999
0.4665170907974243, 0.47226017713546753, 0.5081488762536484, 1738282059121404943
0.0412176251411438, 0.1982991099357605, 0.5061915242628305, 1738282059151467058
-0.4436296820640564, 0.15300631523132324, 0.5152072257670639, 1738282059181482032
0.2925539016723633, 0.22401660680770874, 0.5001692440324881, 1738282059211549744
-0.789565920829773, -0.10871362686157227, 0.4799272846729726, 1738282059242700094
0.5994459986686707, 0.249225914478302, 0.4802229398551109, 1738282059274853139
-0.043255627155303955, 0.114368736743927, 0.5719405821794946, 1738282059301618680
-0.27815139293670654, 0.06880217790603638, 0.5107087634883939, 1738282059331647949
0.30781126022338867, 0.5410827398300171, 0.4999878570691035, 1738282059361716816
-0.19699037075042725, -0.1839650273323059, 0.4815984130812579, 1738282059392335506
0.46241849660873413, 0.4259103536605835, 0.46918689898549204, 1738282059422448328
-0.41345536708831787, 0.4940338730812073, 0.48488897120634317, 1738282059452550236
0.41086655855178833, -0.15560561418533325, 0.5001380180968461, 1738282059482768833
-0.25715988874435425, 0.4717302918434143, 0.45246966810524675, 1738282059514872326
-0.09334421157836914, -0.08702343702316284, 0.5121906024530046, 1738282059542383005
0.17121976613998413, 0.4267333745956421, 0.4955862349507649, 1738282059572397071
0.005785763263702393, 0.29572975635528564, 0.5187145714062218, 1738282059602385557
0.0036004185676574707, 0.06247365474700928, 0.4972612757579327, 1738282059632389672
-0.0585174560546875, 0.14706677198410034, 0.5099899001171232, 1738282059662366287
0.2230747938156128, 0.2766737937927246, 0.5321985454304617, 1738282059692387351
-0.5295044779777527, 0.02848649024963379, 0.4977452549910626, 1738282059723327312
0.25540298223495483, 0.08439767360687256, 0.47099532537027927, 1738282059754759923
-0.4585689902305603, 0.2690325379371643, 0.518027121556125, 1738282059782573638
0.19519954919815063, -0.22556185722351074, 0.4940452662391499, 1738282059812469922
-0.008551716804504395, 0.23117530345916748, 0.5054657841456084, 1738282059842473254
0.1052890419960022, 0.2681928277015686, 0.5091264082155027, 1738282059872561039
-0.17428827285766602, 0.248465895652771, 0.49855704865418504, 1738282059902720456
0.4349445700645447, 0.06317996978759766, 0.5107390322214036, 1738282059932543814
-0.009679079055786133, 0.2560948133468628, 0.5021092834209246, 1738282059963034909
-0.2098754644393921, 0.06031155586242676, 0.4783971660582941, 1738282059994888660
0.10516512393951416, 0.17102444171905518, 0.5261018950750589, 1738282060022623511
-0.24870538711547852, 0.0651237964630127, 0.4795105247295497, 1738282060052647709
0.22861111164093018, 0.38579320907592773, 0.497515983912051, 1738282060082615385
-0.1418231725692749, -0.007298111915588379, 0.5017521667315624, 1738282060112664115
0.10609722137451172, 0.3591434359550476, 0.4960060834874172, 1738282060142673221
-0.6054292321205139, -0.056198060512542725, 0.48423979798998334, 1738282060172928066
0.5132315158843994, -0.14059072732925415, 0.5190496292003527, 1738282060202790895
-0.6256988644599915, 0.6152960062026978, 0.4911187396120735, 1738282060234845719
0.2538056969642639, -0.10036063194274902, 0.550916529690844, 1738282060262817242
-0.18351417779922485, 0.11081022024154663, 0.5086099836718936, 1738282060292789359
-0.2513648271560669, 0.1386786699295044, 0.5009793509696794, 1738282060322823324
-0.194841206073761, 0.3910892605781555, 0.4946820350274385, 1738282060352857992
-0.03108114004135132, 0.238692045211792, 0.5249407687853067, 1738282060382092036
-0.29378175735473633, -0.21863538026809692, 0.49713890747142425, 1738282060412928437
0.38403522968292236, 0.1688808798789978, 0.48606447617634985, 1738282060443287478
-0.5176401734352112, 0.640436053276062, 0.46638140379551984, 1738282060475400623
0.08627814054489136, -0.13219469785690308, 0.49924657476976714, 1738282060505171799
-0.0772397518157959, 0.11662143468856812, 0.5421279617558289, 1738282060533271073
-0.07187724113464355, 0.38600051403045654, 0.5288715203204523, 1738282060562084468
-0.12858814001083374, 0.2722303867340088, 0.43313876967506754, 1738282060585225169
-0.13275885581970215, 0.04363900423049927, 0.5427118651040111, 1738282060613228052
-0.2365713119506836, 0.08249342441558838, 0.5011428042764365, 1738282060643194962
0.5616089701652527, 0.32055121660232544, 0.49445554635440786, 1738282060673253553
-0.3338519334793091, 0.3293803930282593, 0.47612751061763986, 1738282060703297275
-0.07574957609176636, -0.14845329523086548, 0.4692736049779539, 1738282060733337908
0.10518789291381836, 0.3982725143432617, 0.5074696114276405, 1738282060763439478
0.05100435018539429, 0.4377818703651428, 0.46435086369871703, 1738282060795355393
-0.4404715895652771, 0.17466801404953003, 0.47836064655503185, 1738282060825654165
0.10861504077911377, 0.3414691090583801, 0.5454102943404676, 1738282060853537732
-0.2007332444190979, -0.027034103870391846, 0.5168902828395819, 1738282060883473977
-0.06441330909729004, 0.313493549823761, 0.5041939419162075, 1738282060913516342
0.15517908334732056, 0.1456242799758911, 0.5136114373896321, 1738282060943550527
0.29529035091400146, 0.19266915321350098, 0.5162873245099627, 1738282060973594948
-0.000919640064239502, 0.3097740411758423, 0.4927398292634243, 1738282061003638339
-0.17466050386428833, 0.20250064134597778, 0.46569916181141696, 1738282061034977908
0.1495051383972168, 0.08606600761413574, 0.480920087822385, 1738282061066999643
-0.527854323387146, 0.03697580099105835, 0.5662131650011796, 1738282061093847407
0.5510230660438538, 0.21087926626205444, 0.5050037496420188, 1738282061123804870
-0.029350697994232178, 0.1408180594444275, 0.4964320197189158, 1738282061153951839
0.299221932888031, 0.31390827894210815, 0.49034338478085815, 1738282061184032813
-0.04981184005737305, 0.48499035835266113, 0.4955881422879724, 1738282061213903168
-0.4177089333534241, -0.07800835371017456, 0.48226284139627346, 1738282061243947234
0.24146223068237305, 0.5057288408279419, 0.48497255823403695, 1738282061275013141
-0.4768024682998657, -0.05393463373184204, 0.4882221911376713, 1738282061307510621
0.29359763860702515, -0.1159934401512146, 0.590396480864582, 1738282061333103245
-0.18920117616653442, 0.3937683701515198, 0.47043034138252476, 1738282061364025284
-0.09768539667129517, 0.17228543758392334, 0.5150065181546467, 1738282061393081799
0.03763866424560547, 0.32792311906814575, 0.4800008500600483, 1738282061424125500
0.115001380443573, 0.26393526792526245, 0.5061894402580526, 1738282061454157357
0.27078962326049805, 0.2784954905509949, 0.5054066403565735, 1738282061484211733
-0.2869330644607544, -0.06478112936019897, 0.5009520054479081, 1738282061514151759
0.1958688497543335, -0.06530839204788208, 0.45182696167651876, 1738282061547333973
-0.18792659044265747, 0.3605637550354004, 0.5243123035972979, 1738282061574385273
0.06451767683029175, 0.5384092330932617, 0.4887109013394289, 1738282061604324987
0.06007331609725952, -0.02503305673599243, 0.49306369337618783, 1738282061634414006
-0.05169183015823364, -0.013511896133422852, 0.5059802763426293, 1738282061664395087
-0.1474096179008484, 0.8378157615661621, 0.5352908571724247, 1738282061694442965
-0.20872467756271362, 0.24846690893173218, 0.523299735493363, 1738282061724513626
0.22775131464004517, 0.30543196201324463, 0.47335585464924085, 1738282061755756081
0.19678354263305664, 0.3065822720527649, 0.4653492127061863, 1738282061787028505
0.07142436504364014, 0.2889751195907593, 0.5378448021781993, 1738282061814712701
-0.16352969408035278, 0.35670918226242065, 0.4924947786108571, 1738282061844598921
0.6276661157608032, 0.16526609659194946, 0.47936538591422395, 1738282061874652139
-0.7124019861221313, 0.24664491415023804, 0.47055449210837463, 1738282061904660388
-0.08439934253692627, -0.0630192756652832, 0.4973778067981695, 1738282061934716705
-0.4279014468193054, 0.33398890495300293, 0.48745076846323443, 1738282061964756997
-0.47088533639907837, 0.2519457936286926, 0.4677173731244794, 1738282061994911610
0.19763898849487305, 0.39601606130599976, 0.45824520465478163, 1738282062027225732
0.09151095151901245, 0.11426031589508057, 0.5118280644415809, 1738282062056769540
0.18903499841690063, 0.3334159255027771, 0.517178702821785, 1738282062084876275
-6.240606307983398e-05, 0.22707229852676392, 0.4670741810535102, 1738282062114919784
-0.14365386962890625, 0.3263070583343506, 0.48351310030031747, 1738282062144928906
-0.2775856852531433, 0.24017155170440674, 0.4824108682008514, 1738282062174997922
-0.008499443531036377, 0.2627592086791992, 0.47379724391472255, 1738282062205041706
0.26476848125457764, 0.20320004224777222, 0.47573438466463636, 1738282062235197756
-0.24745166301727295, 0.15371227264404297, 0.4567863162062624, 1738282062267530128
0.06060898303985596, 0.02166295051574707, 0.47214132398868414, 1738282062298020781
-0.03761398792266846, 0.03975260257720947, 0.5089860221603645, 1738282062325252766
0.2824134826660156, 0.4360172152519226, 0.4741647796589101, 1738282062354280354
-0.3344206213951111, 0.0035938620567321777, 0.39307046798097933, 1738282062378004666
-0.31996583938598633, 0.11396807432174683, 0.5042167974122608, 1738282062415299191
0.24789291620254517, 0.37608444690704346, 0.4888100474919953, 1738282062445337743
-0.06566840410232544, 0.21139144897460938, 0.48246094783748256, 1738282062475368181
0.04527348279953003, 0.24973058700561523, 0.4614771125950417, 1738282062506083849
0.21728742122650146, 0.472819447517395, 0.4220933298590654, 1738282062538820763
-0.28323835134506226, -0.1532496213912964, 0.5151887851872331, 1738282062565546389
0.040165722370147705, 0.5748857259750366, 0.47344150395088935, 1738282062595492843
-0.386049747467041, 0.34563571214675903, 0.4579642019484211, 1738282062625497444
-0.01009833812713623, -0.1896228790283203, 0.4366011632908397, 1738282062655579179
-0.026202261447906494, 0.2899400591850281, 0.4559774085234271, 1738282062685576239
0.34884101152420044, 0.15040069818496704, 0.444990164396425, 1738282062715653801
-0.16286194324493408, -0.08516967296600342, 0.4072386821723837, 1738282062747371939
-0.14776742458343506, 0.3367570638656616, 0.43891245701114623, 1738282062779381207
0.14746075868606567, 0.17608308792114258, 0.5339822065719557, 1738282062805871825
0.017367303371429443, 0.14471948146820068, 0.44871594642181506, 1738282062835855824
0.05401122570037842, 0.08366954326629639, 0.44621335168229387, 1738282062865995161
-0.33768898248672485, 0.2870224118232727, 0.4622561137147705, 1738282062895080072
0.4526407718658447, 0.30643248558044434, 0.43491355669949566, 1738282062925953074
-0.2623136043548584, 0.08297604322433472, 0.4396775010769973, 1738282062955991234
-0.3950817584991455, 0.14088523387908936, 0.4154059854214851, 1738282062987440968
0.5917957425117493, 0.2843015193939209, 0.4411114394450249, 1738282063018956664
-0.36418330669403076, -0.03872007131576538, 0.5296941827816826, 1738282063045103072
0.3237389326095581, 0.3349725008010864, 0.4303229958004133, 1738282063076151729
-0.6597520709037781, 0.22481077909469604, 0.44365687784303637, 1738282063106163341
-0.4108043909072876, -0.2606581449508667, 0.44416250071970154, 1738282063136143462
0.08489400148391724, 0.4555758833885193, 0.4477590144750014, 1738282063166198212
0.021254897117614746, -0.13377219438552856, 0.43954427557548714, 1738282063196283694
0.2680053114891052, 0.4168888330459595, 0.42966142240794436, 1738282063227632828
-0.27219730615615845, 0.22083234786987305, 0.410465213811936, 1738282063259235433
-0.21688133478164673, 0.3146437406539917, 0.4742523376791212, 1738282063286372470
-0.11383134126663208, 0.32751554250717163, 0.43160544385837535, 1738282063316363965
0.2476453185081482, 0.0708356499671936, 0.4261056149927205, 1738282063346367511
0.22285395860671997, 0.17718887329101562, 0.41077083549628063, 1738282063376447727
0.08763378858566284, 0.25026267766952515, 0.41607507862582566, 1738282063406863547
-0.0696570873260498, 0.38382989168167114, 0.4228856646013479, 1738282063436636805
0.01013261079788208, -0.028498172760009766, 0.4017107473136815, 1738282063467515327
-0.08655208349227905, 0.3634287714958191, 0.40964866610828504, 1738282063498893011
-0.16481709480285645, 0.230027437210083, 0.4660700847591353, 1738282063526725787
-0.3006664514541626, 0.21719980239868164, 0.43339474405078765, 1738282063556693096
0.33569198846817017, -0.02019888162612915, 0.4442701312334777, 1738282063586672639
0.00046306848526000977, 0.22934478521347046, 0.4255737185583631, 1738282063616763129
0.07634526491165161, 0.33592087030410767, 0.41254916247360535, 1738282063646761949
-0.337308406829834, -0.18087977170944214, 0.3986288601238393, 1738282063676783802
0.2034069299697876, 0.06469887495040894, 0.39087340825729894, 1738282063707514701
0.34702545404434204, 0.2895634174346924, 0.39976631205318885, 1738282063739642176
0.22426271438598633, -0.18608611822128296, 0.44545702551140487, 1738282063766922489
-0.17908740043640137, 0.45550858974456787, 0.3775666826859023, 1738282063797517675
0.04828763008117676, -0.33040016889572144, 0.4276900321555138, 1738282063827496772
0.17118000984191895, 0.4420357346534729, 0.4352131099385108, 1738282063857612286
-0.4067511558532715, 0.28138285875320435, 0.40631684409343033, 1738282063887665019
0.24512159824371338, 0.054847776889801025, 0.4085467262760858, 1738282063917650461
-0.22667819261550903, 0.31018388271331787, 0.4073149579638493, 1738282063947648293
0.14708411693572998, 0.38341569900512695, 0.37634486506617426, 1738282063978924754
0.10674035549163818, 0.016542553901672363, 0.37404230593172905, 1738282064009766278
-0.08586680889129639, 0.27427148818969727, 0.42882646368956673, 1738282064037699983
0.43397295475006104, 0.33003926277160645, 0.38669994380154754, 1738282064067607048
-0.2675412893295288, 0.1654982566833496, 0.38102356666339926, 1738282064097602445
-0.1772603988647461, 0.21938908100128174, 0.402128787434475, 1738282064127592234
-0.00912553071975708, 0.45584285259246826, 0.42198909755584524, 1738282064157665834
0.2758561968803406, 0.3616803288459778, 0.41500101550621055, 1738282064187665088
-0.16887831687927246, 0.32417917251586914, 0.3891560068810549, 1738282064219240983
-0.21144723892211914, -0.0367351770401001, 0.38222330103703045, 1738282064250478094
0.235687255859375, 0.4577656388282776, 0.41556688811622283, 1738282064277866157
0.4149835705757141, 0.14409089088439941, 0.3528422239979842, 1738282064307711851
-0.002038419246673584, 0.2178012728691101, 0.36269114814378195, 1738282064338048605
-0.6252702474594116, 0.4946139454841614, 0.38471877566314294, 1738282064367745793
0.35664427280426025, 0.3485187888145447, 0.40978955450911064, 1738282064397839706
-0.1780112385749817, 0.07599186897277832, 0.41290314418547847, 1738282064427855492
0.3886467218399048, 0.1467806100845337, 0.4156608514600638, 1738282064458986233
-0.17123985290527344, 0.29520153999328613, 0.38391211590671376, 1738282064490957887
-0.03446274995803833, 0.023117005825042725, 0.4082310557440175, 1738282064517983371
-0.09117543697357178, 0.28163671493530273, 0.35751669117377677, 1738282064547970326
-0.22162210941314697, 0.18769633769989014, 0.3516102319421769, 1738282064578255382
-0.4711719751358032, -0.08066165447235107, 0.3735063976898675, 1738282064608061353
0.34529536962509155, 0.4348139762878418, 0.41191383957812877, 1738282064638068813
0.12373614311218262, 0.6191014051437378, 0.39698164332809066, 1738282064667990445
-0.23221850395202637, -0.07622939348220825, 0.3360566715305891, 1738282064699528938
-0.3110787868499756, 0.043604910373687744, 0.3328337577840475, 1738282064730996661
-0.2590041160583496, 0.676763653755188, 0.39806124066823845, 1738282064758146321
0.284129798412323, 0.18211668729782104, 0.3979274658096047, 1738282064787078597
-0.11145281791687012, 0.32150352001190186, 0.3878551601415779, 1738282064818118307
-0.28084176778793335, 0.3189126253128052, 0.3990626899706173, 1738282064847107787
0.45854610204696655, 0.3045561909675598, 0.3675778697828813, 1738282064878221119
0.10342556238174438, 0.021261632442474365, 0.37529493782464557, 1738282064908243567
0.1349623203277588, 0.3203818202018738, 0.3601199478996169, 1738282064938979906
